Folder: outsourcing/python-workspace/python-mathematical

File: prob_3_data.csv
displacement(mm),load(kN)
0.01,2.3
0.01,3.1
0.01,3.9
0.02,4.7
0.02,5.5
0.02,6.4
0.03,7.4
0.03,8.2
0.03,9.1
0.04,9.8
0.04,10.6
0.04,11.4
0.05,12.4
0.05,13.3
0.05,14.2
0.06,15
0.06,15.8
0.06,16.6
0.07,17.8
0.07,18.8
0.07,19.9
0.08,20.9
0.08,21.8
0.08,23.1
0.09,24.3
0.09,25.5
0.09,26.5
0.09,27.6
0.1,28.8
0.1,29.8
0.11,31.2
0.11,32.5
0.11,34.1
0.11,35.4
0.12,36.8
0.12,37.9
0.12,38.8
0.13,40
0.13,41.1
0.13,42.3
0.13,43.3
0.14,44.2
0.14,45.3
0.15,46.7
0.15,48.1
0.15,49.1
0.15,50.4
0.16,51.7
0.16,53
0.16,54.3
0.16,55.5
0.17,56.9
0.17,58.1
0.18,59.5
0.18,60.8
0.18,62.1
0.19,63.4
0.19,65
0.19,66.2
0.19,67.5
0.2,68.8
0.2,70
0.2,71.2
0.21,72.7
0.21,74
0.21,74.9
0.22,76.1
0.22,77.3
0.22,78.6
0.23,79.8
0.23,81.1
0.23,82.4
0.24,83.7
0.24,84.8
0.24,86.1
0.25,87.7
0.25,89.3
0.25,90.5
0.26,92
0.26,93.3
0.26,94.8
0.27,96.3
0.27,97.7
0.27,99
0.28,100.5
0.28,101.7
0.28,103.1
0.29,104.5
0.29,105.6
0.29,106.9
0.3,108
0.3,109.5
0.3,110.5
0.31,112.1
0.31,113.4
0.31,114.9
0.32,116.2
0.32,117.7
0.32,118.6
0.32,119.9
0.33,121.2
0.33,122.6
0.33,123.7
0.34,125
0.34,126.2
0.34,127.3
0.35,129.2
0.35,130.9
0.35,132.1
0.36,133.8
0.36,135.2
0.37,136.5
0.37,138
0.37,139.4
0.38,140.7
0.38,142.2
0.38,143.4
0.39,144.7
0.39,146.2
0.39,147.3
0.4,148.7
0.4,149.8
0.4,151.1
0.4,152.1
0.41,153.5
0.41,154.4
0.41,155.5
0.42,156.7
0.42,157.8
0.42,158.8
0.43,159.9
0.43,160.8
0.43,161.9
0.44,163.3
0.44,164.7
0.44,165.8
0.45,167.3
0.45,168.3
0.45,169.1
0.46,170.4
0.46,171.5
0.46,172.5
0.47,173.5
0.47,174.7
0.48,175.9
0.48,177.2
0.48,178.3
0.49,179.6
0.49,180.8
0.49,181.7
0.5,182.6
0.5,183.8
0.5,184.7
0.51,185.6
0.51,186.4
0.51,187.3
0.52,188.6
0.52,189.7
0.53,190.8
0.53,191.8
0.53,192.8
0.54,193.9
0.54,194.8
0.55,195.6
0.55,196.4
0.55,197.2
0.56,198.4
0.56,199.3
0.57,200.3
0.57,201.3
0.57,202.1
0.58,202.9
0.58,203.7
0.59,204.5
0.59,205.5
0.6,206.7
0.6,207.6
0.61,208.6
0.61,209.5
0.62,210.4
0.62,211.6
0.63,212.5
0.64,213.2
0.64,214
0.65,214.7
0.66,215.4
0.66,216.2
0.67,217
0.67,217.8
0.68,218.5
0.69,219.3
0.71,219.9
0.73,220.1
0.74,220.5
0.75,219.8
0.76,219.1
0.77,218.3
0.77,217.5
0.78,216.7
0.79,215.9
0.79,214.8
0.8,213.8
0.8,212.3
0.81,211.1
0.81,210
0.81,208.9
0.82,207.7
0.82,206.7
0.83,205.6
0.83,204.4
0.83,203.2
0.84,202.2
0.84,201.1
0.84,200.1
0.85,199
0.85,197.7
0.86,196.4
0.86,195.4
0.87,194
0.87,192.7
0.87,191.4
0.88,190.3
0.88,189.1
0.89,187.6
0.89,186.2
0.9,183.9
0.9,182.8
0.91,181.7
0.91,180.5
0.91,179.3
0.92,178.1
0.92,177
0.93,175.6
0.93,174.2
0.94,172.9
0.94,171.5
0.94,170.1
0.95,168.7
0.95,167.3
0.96,166.2
0.96,164.9
0.96,163.8
0.97,162.5
0.97,161.3
0.98,160.1
0.98,159.3
0.98,158
0.99,156.9
0.99,155.6
1,154.2
1,153.1
1,151.8
1.01,150.7
1.01,149.6
1.01,148.6
1.02,147.8
1.02,146.7
1.03,145.5
1.03,144.4
1.03,143.1
1.04,142.1
1.04,140.9
1.05,139.8
1.05,138.7
1.05,137.5
1.06,136.7
1.06,135.4
1.07,134.3
1.07,133.5
1.08,132.3
1.08,131.1
1.08,129.7
1.09,128.4
1.09,127.2
1.1,126
1.1,124.9
1.1,123.6
1.11,122.4
1.11,121.1
1.11,120
1.12,119
1.12,118.2
1.12,117.2
1.13,116.3
1.13,115.5
1.14,114.7
1.14,113.8
1.14,112.8
1.15,111.9
1.15,110.8
1.16,110.3